[[
	{
		"success": true,
		"timeout": false,
		"failed_images": [],
		"failed_audio": [],
		"failed_video": [],
		"trial_type": "preload",
		"trial_index": 0,
		"time_elapsed": 90,
		"internal_node_id": "0.0-0.0"
	},
	{
		"rt": 1298,
		"stimulus": " <p style=\"margin-top:2%;\"><b>Welcome!</b></p><p style=\"font-size:100%;margin-left:10%;margin-right:10%;\">We are Dean McHugh and Tomasz Klochowicz from the University of Amsterdam. At the beginning, we would like to thank you for your participation in this study. It should take you no more than 15 minutes to answer all the questions. </p> <p style=\"font-size:100%;margin-left:10%;margin-right:10%;\">The questions do not have \"right\" or \"wrong\" answers. Some of the questions may seem similar, but please answer all of them. The survey does not aim to test your general knowledge. Some of the questions may refer to real people or events, but the stories in the questions are completely made up for the sole purpose of this survey. If a story seems false or implausible to you, try to imagine the situation described by the story. If you have any questions, you can contact us by e-mail at: t.j.klochowicz@uva.nl.</p>",
		"response": 0,
		"trial_type": "html-button-response",
		"trial_index": 1,
		"time_elapsed": 1390,
		"internal_node_id": "0.0-1.0"
	},
	{
		"rt": 1487,
		"stimulus": " \n                <div class='row'> \n                    <div class = 'col consent'>\n                        <h2 style='text-align:center;margin-bottom:2%'>Informed Consent</h2>\n                        <hr>\n                        <p>By clicking the button 'Accept and continue' below you declare that:</p>\n\n                        <p>You have been clearly informed about the research:  Similarity and Aboutness in Conditionals, research project conducted by Tomasz Klochowicz (PhD student) and Dean McHugh (postdoc) at the University of Amsterdam, Institute for Logic Language and Computation, as described in the information brochure displayed at prolific.co. You declare that your questions have been answered to your satisfaction.</p>\n\n                        <p>You realise that participation in this research is on an entirely voluntary basis. You retain the right to revoke this consent without having to provide any reasons for my decision. You are aware that you are entitled to discontinue the research at any time, and that you can always withdraw your consent after the research has ended. If you decide to stop or withdraw your consent, all the information gathered up until then will be permanently deleted.</p>\n\n                        <p>If your data are used in scientific publications or made public in any other way, they will be fully anonymised. Your personal information may not be viewed by third parties.</p>\n\n                        <p>If you need any further information on the research, now or in the future, you can contact Tomasz Klochowicz (email: t.j.klochowicz@uva.nl) or Dean McHugh (d.m.mchugh@uva.nl); Universiteit van Amsterdam P.O. Box 94242 1090 GE Amsterdam.</p>\n                        <p>If you have any complaints regarding this research, you can contact the secretary of the Ethics Committee of the Faculty of Humanities of the University of Amsterdam; email: commissie-ethiek-fgw@uva.nl; phone number: +31 20 525 3054; Binnengasthuisstraat 9, 1012 ZA Amsterdam.</p>\n                        <p>By clicking the button 'Accept and continue' below you consent to:</p>\n                        <ul>\n                            <li>Participate in this research </li>\n                            <li>Storage and processing of the anonymized data. </li>\n                        </ul>\n                    </div>\n                </div>\n            ",
		"response": 1,
		"trial_type": "html-button-response",
		"trial_index": 2,
		"time_elapsed": 2878,
		"internal_node_id": "0.0-2.0-0.0",
		"correct": true
	},
	{
		"rt": null,
		"stimulus": " <p style=\"margin-top:2%;font-size:200%;\"><b>Scenario 1</b></p><hr style=\"margin-bottom:20%;\">",
		"response": null,
		"trial_type": "html-keyboard-response",
		"trial_index": 3,
		"time_elapsed": 3885,
		"internal_node_id": "0.0-3.0"
	},
	{
		"rt": 1145,
		"stimulus": " \n <img src='img/md_l.png' style='width:90%;max-width:1000px;height:auto;margin-bottom:4%;'></img>\n \n <p style='margin-bottom:4%;font-size:110%;'> <b>Switch B is currently in the shaded area. </b></p>\n\n",
		"response": 1,
		"scenario": "switches",
		"question_type": "filler",
		"ordering": 0,
		"predicted_ans": 2,
		"condition": "F3",
		"trial_type": "html-button-response",
		"trial_index": 4,
		"time_elapsed": 5031,
		"internal_node_id": "0.0-4.0-0.0",
		"indet": true,
		"indeterminate_status": "I strongly feel that there is no right answer."
	},
	{
		"rt": 1278,
		"response": {
			"Q0": "I strongly feel that there is no right answer."
		},
		"question_order": [
			0
		],
		"trial_type": "survey-multi-choice",
		"trial_index": 5,
		"time_elapsed": 6712,
		"internal_node_id": "0.0-4.0-1.0-0.0",
		"question_type": "indeterminate_trial",
		"ordering": 0
	},
	{
		"rt": 732,
		"stimulus": " \n <img src='img/md_l.png' style='width:90%;max-width:1000px;height:auto;margin-bottom:4%;'></img>\n \n <p style='margin-bottom:4%;font-size:110%;'> <b>If both switches were in the shaded area, the light would be on. </b></p>\n\n",
		"response": 1,
		"scenario": "switches",
		"question_type": "test",
		"ordering": 0,
		"predicted_ans": 3,
		"condition": "T4",
		"trial_type": "html-button-response",
		"trial_index": 6,
		"time_elapsed": 7448,
		"internal_node_id": "0.0-4.0-0.1",
		"indet": true,
		"indeterminate_status": "I just don't know; I am not sure what the answer is."
	},
	{
		"rt": 1231,
		"response": {
			"Q0": "I just don't know; I am not sure what the answer is."
		},
		"question_order": [
			0
		],
		"trial_type": "survey-multi-choice",
		"trial_index": 7,
		"time_elapsed": 9081,
		"internal_node_id": "0.0-4.0-1.1-0.1",
		"question_type": "indeterminate_trial",
		"ordering": 0
	},
	{
		"rt": 813,
		"stimulus": " \n <img src='img/md_l.png' style='width:90%;max-width:1000px;height:auto;margin-bottom:4%;'></img>\n \n <p style='margin-bottom:4%;font-size:110%;'> <b>If switch B were in the shaded area, both switches would be in the shaded area. </b></p>\n\n",
		"response": 0,
		"scenario": "switches",
		"question_type": "test",
		"ordering": 0,
		"predicted_ans": 0,
		"condition": "T2",
		"trial_type": "html-button-response",
		"trial_index": 8,
		"time_elapsed": 9897,
		"internal_node_id": "0.0-4.0-0.2",
		"indet": false
	},
	{
		"rt": 220,
		"stimulus": " \n <img src='img/md_l.png' style='width:90%;max-width:1000px;height:auto;margin-bottom:4%;'></img>\n \n <p style='margin-bottom:4%;font-size:110%;'> <b>Switch B is currently in the middle. </b></p>\n\n",
		"response": 0,
		"scenario": "switches",
		"question_type": "filler",
		"ordering": 0,
		"predicted_ans": 2,
		"condition": "F4",
		"trial_type": "html-button-response",
		"trial_index": 9,
		"time_elapsed": 10522,
		"internal_node_id": "0.0-4.0-0.3",
		"indet": false
	},
	{
		"rt": 153,
		"stimulus": " \n <img src='img/md_l.png' style='width:90%;max-width:1000px;height:auto;margin-bottom:4%;'></img>\n \n <p style='margin-bottom:4%;font-size:110%;'> <b>If both switches were outside the shaded area, the light would be on. </b></p>\n\n",
		"response": 0,
		"scenario": "switches",
		"question_type": "test",
		"ordering": 0,
		"predicted_ans": 2,
		"condition": "False",
		"trial_type": "html-button-response",
		"trial_index": 10,
		"time_elapsed": 11082,
		"internal_node_id": "0.0-4.0-0.4",
		"indet": false
	},
	{
		"rt": 183,
		"stimulus": " \n <img src='img/md_l.png' style='width:90%;max-width:1000px;height:auto;margin-bottom:4%;'></img>\n \n <p style='margin-bottom:4%;font-size:110%;'> <b>If switch B were in the shaded area, the light would be on. </b></p>\n\n",
		"response": 0,
		"scenario": "switches",
		"question_type": "test",
		"ordering": 0,
		"predicted_ans": 0,
		"condition": "T1",
		"trial_type": "html-button-response",
		"trial_index": 11,
		"time_elapsed": 11674,
		"internal_node_id": "0.0-4.0-0.5",
		"indet": false
	},
	{
		"rt": 342,
		"stimulus": " \n <img src='img/md_l.png' style='width:90%;max-width:1000px;height:auto;margin-bottom:4%;'></img>\n \n <p style='margin-bottom:4%;font-size:110%;'> <b>The light is on just in case switch A is in the middle and switch B is up or in the middle. </b></p>\n\n",
		"response": 0,
		"scenario": "switches",
		"question_type": "filler",
		"ordering": 0,
		"predicted_ans": 0,
		"condition": "F1",
		"trial_type": "html-button-response",
		"trial_index": 12,
		"time_elapsed": 12419,
		"internal_node_id": "0.0-4.0-0.6",
		"indet": false
	},
	{
		"rt": 722,
		"stimulus": " \n <img src='img/md_l.png' style='width:90%;max-width:1000px;height:auto;margin-bottom:4%;'></img>\n \n <p style='margin-bottom:4%;font-size:110%;'> <b>A switch is in the shaded area just in case it is up or in the middle. </b></p>\n\n",
		"response": 0,
		"scenario": "switches",
		"question_type": "filler",
		"ordering": 0,
		"predicted_ans": 0,
		"condition": "F5",
		"trial_type": "html-button-response",
		"trial_index": 13,
		"time_elapsed": 13547,
		"internal_node_id": "0.0-4.0-0.7",
		"indet": false
	},
	{
		"rt": 185,
		"stimulus": " \n <img src='img/md_l.png' style='width:90%;max-width:1000px;height:auto;margin-bottom:4%;'></img>\n \n <p style='margin-bottom:4%;font-size:110%;'> <b>If both switches were in the middle, the light would be on. </b></p>\n\n",
		"response": 0,
		"scenario": "switches",
		"question_type": "test",
		"ordering": 0,
		"predicted_ans": 0,
		"condition": "True",
		"trial_type": "html-button-response",
		"trial_index": 14,
		"time_elapsed": 14139,
		"internal_node_id": "0.0-4.0-0.8",
		"indet": false
	},
	{
		"rt": 402,
		"stimulus": " \n <img src='img/md_l.png' style='width:90%;max-width:1000px;height:auto;margin-bottom:4%;'></img>\n <p style='margin-bottom:4%;font-size:110%;'> <b>The light is currently on. </b></p>\n\n",
		"response": 0,
		"scenario": "switches",
		"question_type": "filler",
		"ordering": 0,
		"predicted_ans": 2,
		"condition": "F2",
		"trial_type": "html-button-response",
		"trial_index": 15,
		"time_elapsed": 14956,
		"internal_node_id": "0.0-4.0-0.9",
		"indet": false
	},
	{
		"rt": 363,
		"stimulus": " \n <img src='img/md_l.png' style='width:90%;max-width:1000px;height:auto;margin-bottom:4%;'></img>\n \n <p style='margin-bottom:4%;font-size:110%;'> <b>If both switches were in the shaded area, switch B would be in the shaded area. </b></p>\n\n",
		"response": 0,
		"scenario": "switches",
		"question_type": "test",
		"ordering": 0,
		"predicted_ans": 0,
		"condition": "T3",
		"trial_type": "html-button-response",
		"trial_index": 16,
		"time_elapsed": 15724,
		"internal_node_id": "0.0-4.0-0.10",
		"indet": false
	},
	{
		"rt": null,
		"stimulus": " <p style=\"margin-top:2%;font-size:200%;\"><b>Scenario 2</b></p><hr style=\"margin-bottom:20%;\">",
		"response": null,
		"trial_type": "html-keyboard-response",
		"trial_index": 17,
		"time_elapsed": 17141,
		"internal_node_id": "0.0-5.0"
	},
	{
		"rt": 391,
		"stimulus": " \n    <p>  Alice likes strawberry-flavoured candy and does not like any other kind of candy. Bob likes all fruit-flavoured candy, but does not like any other kind of candy. </p>             \n    <img src='img/c_a_s_im.png' style='width:90%;max-width:600px;height:auto;margin-bottom:4%;'></img><br>\n    <img src='img/c_b_m_im.png' style='width:90%;max-width:600px;height:auto;margin-bottom:4%;'></img>\n    <p style='margin-bottom:4%;font-size:110%;'> <b>Bob currently has a fruit-flavoured candy.</b></p>\n",
		"response": 1,
		"scenario": "candy",
		"question_type": "filler",
		"ordering": 0,
		"predicted_ans": 2,
		"condition": "F3",
		"trial_type": "html-button-response",
		"trial_index": 18,
		"time_elapsed": 17534,
		"internal_node_id": "0.0-6.0-0.0",
		"indet": true,
		"indeterminate_status": "I just don't know; I am not sure what the answer is."
	},
	{
		"rt": 1103,
		"response": {
			"Q0": "I just don't know; I am not sure what the answer is."
		},
		"question_order": [
			0
		],
		"trial_type": "survey-multi-choice",
		"trial_index": 19,
		"time_elapsed": 19032,
		"internal_node_id": "0.0-6.0-1.0-0.0",
		"question_type": "indeterminate_trial",
		"ordering": 0
	},
	{
		"rt": 556,
		"stimulus": " \n    <p>  Alice likes strawberry-flavoured candy and does not like any other kind of candy. Bob likes all fruit-flavoured candy, but does not like any other kind of candy. </p>             \n    <img src='img/c_a_s_im.png' style='width:90%;max-width:600px;height:auto;margin-bottom:4%;'></img><br>\n    <img src='img/c_b_m_im.png' style='width:90%;max-width:600px;height:auto;margin-bottom:4%;'></img>\n    <p style='margin-bottom:4%;font-size:110%;'> <b>Both Alice and Bob are happy just in case Alice gets a strawberry-flavoured candy and Bob gets a fruit-flavoured candy. </b></p>\n",
		"response": 1,
		"scenario": "candy",
		"question_type": "filler",
		"ordering": 0,
		"predicted_ans": 0,
		"condition": "F1",
		"trial_type": "html-button-response",
		"trial_index": 20,
		"time_elapsed": 19592,
		"internal_node_id": "0.0-6.0-0.1",
		"indet": true,
		"indeterminate_status": "I strongly feel that there is no right answer."
	},
	{
		"rt": 1161,
		"response": {
			"Q0": "I strongly feel that there is no right answer."
		},
		"question_order": [
			0
		],
		"trial_type": "survey-multi-choice",
		"trial_index": 21,
		"time_elapsed": 21160,
		"internal_node_id": "0.0-6.0-1.1-0.1",
		"question_type": "indeterminate_trial",
		"ordering": 0
	},
	{
		"rt": 621,
		"stimulus": " \n    <p>  Alice likes strawberry-flavoured candy and does not like any other kind of candy. Bob likes all fruit-flavoured candy, but does not like any other kind of candy. </p>             \n    <img src='img/c_a_s_im.png' style='width:90%;max-width:600px;height:auto;margin-bottom:4%;'></img><br>\n    <img src='img/c_b_m_im.png' style='width:90%;max-width:600px;height:auto;margin-bottom:4%;'></img>\n    <p style='margin-bottom:4%;font-size:110%;'> <b>If both children’s candy were fruit-flavoured, Bob’s candy would be fruit-flavoured. </b></p>\n",
		"response": 0,
		"scenario": "candy",
		"question_type": "test",
		"ordering": 0,
		"predicted_ans": 0,
		"condition": "T3",
		"trial_type": "html-button-response",
		"trial_index": 22,
		"time_elapsed": 21785,
		"internal_node_id": "0.0-6.0-0.2",
		"indet": false
	},
	{
		"rt": 321,
		"stimulus": " \n    <p>  Alice likes strawberry-flavoured candy and does not like any other kind of candy. Bob likes all fruit-flavoured candy, but does not like any other kind of candy. </p>             \n    <img src='img/c_a_s_im.png' style='width:90%;max-width:600px;height:auto;margin-bottom:4%;'></img><br>\n    <img src='img/c_b_m_im.png' style='width:90%;max-width:600px;height:auto;margin-bottom:4%;'></img>\n    <p style='margin-bottom:4%;font-size:110%;'> <b>Bob currently has a strawberry-flavoured candy. </b></p>\n",
		"response": 0,
		"scenario": "candy",
		"question_type": "filler",
		"ordering": 0,
		"predicted_ans": 2,
		"condition": "F4",
		"trial_type": "html-button-response",
		"trial_index": 23,
		"time_elapsed": 22521,
		"internal_node_id": "0.0-6.0-0.3",
		"indet": false
	},
	{
		"rt": 249,
		"stimulus": " \n    <p>  Alice likes strawberry-flavoured candy and does not like any other kind of candy. Bob likes all fruit-flavoured candy, but does not like any other kind of candy. </p>             \n    <img src='img/c_a_s_im.png' style='width:90%;max-width:600px;height:auto;margin-bottom:4%;'></img><br>\n    <img src='img/c_b_m_im.png' style='width:90%;max-width:600px;height:auto;margin-bottom:4%;'></img>\n    <p style='margin-bottom:4%;font-size:110%;'> <b>If Bob’s candy were fruit-flavoured, both children would be happy with their candy. </b></p>\n",
		"response": 0,
		"scenario": "candy",
		"question_type": "test",
		"ordering": 0,
		"predicted_ans": 0,
		"condition": "T1",
		"trial_type": "html-button-response",
		"trial_index": 24,
		"time_elapsed": 23178,
		"internal_node_id": "0.0-6.0-0.4",
		"indet": false
	},
	{
		"rt": 244,
		"stimulus": " \n    <p>  Alice likes strawberry-flavoured candy and does not like any other kind of candy. Bob likes all fruit-flavoured candy, but does not like any other kind of candy. </p>             \n    <img src='img/c_a_s_im.png' style='width:90%;max-width:600px;height:auto;margin-bottom:4%;'></img><br>\n    <img src='img/c_b_m_im.png' style='width:90%;max-width:600px;height:auto;margin-bottom:4%;'></img>\n    <p style='margin-bottom:4%;font-size:110%;'> <b>The teacher’s bag contains banana-flavoured candy. </b></p>\n",
		"response": 0,
		"scenario": "candy",
		"question_type": "filler",
		"ordering": 0,
		"predicted_ans": 0,
		"condition": "F5",
		"trial_type": "html-button-response",
		"trial_index": 25,
		"time_elapsed": 23826,
		"internal_node_id": "0.0-6.0-0.5",
		"indet": false
	},
	{
		"rt": 382,
		"stimulus": " \n    <p>  Alice likes strawberry-flavoured candy and does not like any other kind of candy. Bob likes all fruit-flavoured candy, but does not like any other kind of candy. </p>             \n    <img src='img/c_a_s_im.png' style='width:90%;max-width:600px;height:auto;margin-bottom:4%;'></img><br>\n    <img src='img/c_b_m_im.png' style='width:90%;max-width:600px;height:auto;margin-bottom:4%;'></img>\n    <p style='margin-bottom:4%;font-size:110%;'> <b>If both children had fruit-flavoured candy, they would both be happy with their candy. </b></p>\n",
		"response": 0,
		"scenario": "candy",
		"question_type": "test",
		"ordering": 0,
		"predicted_ans": 2,
		"condition": "False",
		"trial_type": "html-button-response",
		"trial_index": 26,
		"time_elapsed": 24619,
		"internal_node_id": "0.0-6.0-0.6",
		"indet": false
	},
	{
		"rt": 277,
		"stimulus": " \n    <p>  Alice likes strawberry-flavoured candy and does not like any other kind of candy. Bob likes all fruit-flavoured candy, but does not like any other kind of candy. </p>             \n    <img src='img/c_a_s_im.png' style='width:90%;max-width:600px;height:auto;margin-bottom:4%;'></img><br>\n    <img src='img/c_b_m_im.png' style='width:90%;max-width:600px;height:auto;margin-bottom:4%;'></img>\n    <p style='margin-bottom:4%;font-size:110%;'> <b>Both children currently have fruit-flavoured candy.</b></p>\n",
		"response": 0,
		"scenario": "candy",
		"question_type": "filler",
		"ordering": 0,
		"predicted_ans": 2,
		"condition": "F6",
		"trial_type": "html-button-response",
		"trial_index": 27,
		"time_elapsed": 25314,
		"internal_node_id": "0.0-6.0-0.7",
		"indet": false
	},
	{
		"rt": 209,
		"stimulus": " \n    <p>  Alice likes strawberry-flavoured candy and does not like any other kind of candy. Bob likes all fruit-flavoured candy, but does not like any other kind of candy. </p>             \n    <img src='img/c_a_s_im.png' style='width:90%;max-width:600px;height:auto;margin-bottom:4%;'></img><br>\n    <img src='img/c_b_m_im.png' style='width:90%;max-width:600px;height:auto;margin-bottom:4%;'></img>\n    <p style='margin-bottom:4%;font-size:110%;'> <b>If both children had strawberry-flavoured candy, they would both be happy with their candy. </b></p>\n",
		"response": 0,
		"scenario": "candy",
		"question_type": "test",
		"ordering": 0,
		"predicted_ans": 0,
		"condition": "True",
		"trial_type": "html-button-response",
		"trial_index": 28,
		"time_elapsed": 25938,
		"internal_node_id": "0.0-6.0-0.8",
		"indet": false
	},
	{
		"rt": 174,
		"stimulus": " \n    <p>  Alice likes strawberry-flavoured candy and does not like any other kind of candy. Bob likes all fruit-flavoured candy, but does not like any other kind of candy. </p>             \n    <img src='img/c_a_s_im.png' style='width:90%;max-width:600px;height:auto;margin-bottom:4%;'></img><br>\n    <img src='img/c_b_m_im.png' style='width:90%;max-width:600px;height:auto;margin-bottom:4%;'></img>\n    <p style='margin-bottom:4%;font-size:110%;'> <b>If both children’s candy were fruit-flavoured, both children would be happy with their candy.</b></p>\n",
		"response": 0,
		"scenario": "candy",
		"question_type": "test",
		"ordering": 0,
		"predicted_ans": 3,
		"condition": "T4",
		"trial_type": "html-button-response",
		"trial_index": 29,
		"time_elapsed": 26523,
		"internal_node_id": "0.0-6.0-0.9",
		"indet": false
	},
	{
		"rt": 158,
		"stimulus": " \n    <p>  Alice likes strawberry-flavoured candy and does not like any other kind of candy. Bob likes all fruit-flavoured candy, but does not like any other kind of candy. </p>             \n    <img src='img/c_a_s_im.png' style='width:90%;max-width:600px;height:auto;margin-bottom:4%;'></img><br>\n    <img src='img/c_b_m_im.png' style='width:90%;max-width:600px;height:auto;margin-bottom:4%;'></img>\n    <p style='margin-bottom:4%;font-size:110%;'> <b>Both children are happy with the candy they have. </b></p>\n",
		"response": 0,
		"scenario": "candy",
		"question_type": "filler",
		"ordering": 0,
		"predicted_ans": 2,
		"condition": "F2",
		"trial_type": "html-button-response",
		"trial_index": 30,
		"time_elapsed": 27092,
		"internal_node_id": "0.0-6.0-0.10",
		"indet": false
	},
	{
		"rt": 346,
		"stimulus": " \n    <p>  Alice likes strawberry-flavoured candy and does not like any other kind of candy. Bob likes all fruit-flavoured candy, but does not like any other kind of candy. </p>             \n    <img src='img/c_a_s_im.png' style='width:90%;max-width:600px;height:auto;margin-bottom:4%;'></img><br>\n    <img src='img/c_b_m_im.png' style='width:90%;max-width:600px;height:auto;margin-bottom:4%;'></img>\n    <p style='margin-bottom:4%;font-size:110%;'> <b>If Bob’s candy were fruit-flavoured, both children’s candy would be fruit-flavoured.</b></p>\n",
		"response": 0,
		"scenario": "candy",
		"question_type": "test",
		"ordering": 0,
		"predicted_ans": 0,
		"condition": "T2",
		"trial_type": "html-button-response",
		"trial_index": 31,
		"time_elapsed": 27844,
		"internal_node_id": "0.0-6.0-0.11",
		"indet": false
	},
	{
		"rt": null,
		"stimulus": " <p style=\"margin-top:2%;font-size:200%;\"><b>Scenario 3</b></p><hr style=\"margin-bottom:20%;\">",
		"response": null,
		"trial_type": "html-keyboard-response",
		"trial_index": 32,
		"time_elapsed": 29263,
		"internal_node_id": "0.0-7.0"
	},
	{
		"rt": 876,
		"stimulus": " \n    <p>   A player wins just in case their red number is higher than their opponentʼs red number and their blue number is higher than their opponentʼs blue number.  </p>           \n    <p>Otherwise the result is a draw.</p>                  \n    <img src='img/n_test_im.png' style='width:90%;max-width:600px;height:auto;margin-bottom:4%;'></img>\n    <p style='margin-bottom:4%;font-size:110%;'> <b> If both of Kimʼs numbers were even, Kim would have a winning hand. </b></p>\n",
		"response": 1,
		"scenario": "numbers",
		"question_type": "test",
		"ordering": 0,
		"predicted_ans": 3,
		"condition": "T4",
		"trial_type": "html-button-response",
		"trial_index": 33,
		"time_elapsed": 30141,
		"internal_node_id": "0.0-8.0-0.0",
		"indet": true,
		"indeterminate_status": "I just don't know; I am not sure what the answer is."
	},
	{
		"rt": 1136,
		"response": {
			"Q0": "I just don't know; I am not sure what the answer is."
		},
		"question_order": [
			0
		],
		"trial_type": "survey-multi-choice",
		"trial_index": 34,
		"time_elapsed": 31678,
		"internal_node_id": "0.0-8.0-1.0-0.0",
		"question_type": "indeterminate_trial",
		"ordering": 0
	},
	{
		"rt": 1349,
		"stimulus": " \n    <p>   A player wins just in case their red number is higher than their opponentʼs red number and their blue number is higher than their opponentʼs blue number.  </p>           \n    <p>Otherwise the result is a draw.</p>                  \n    <img src='img/n_test_im.png' style='width:90%;max-width:600px;height:auto;margin-bottom:4%;'></img>\n    <p style='margin-bottom:4%;font-size:110%;'> <b> Kimʼs red number is higher than Alexʼs red number. </b></p>\n",
		"response": 2,
		"scenario": "numbers",
		"question_type": "filler",
		"ordering": 0,
		"predicted_ans": 0,
		"condition": "F1",
		"trial_type": "html-button-response",
		"trial_index": 35,
		"time_elapsed": 33031,
		"internal_node_id": "0.0-8.0-0.1",
		"indet": false
	},
	{
		"rt": 335,
		"stimulus": " \n    <p>   A player wins just in case their red number is higher than their opponentʼs red number and their blue number is higher than their opponentʼs blue number.  </p>           \n    <p>Otherwise the result is a draw.</p>                  \n    <img src='img/n_test_im.png' style='width:90%;max-width:600px;height:auto;margin-bottom:4%;'></img>\n    <p style='margin-bottom:4%;font-size:110%;'> <b> 2 is an even number. </b></p>\n",
		"response": 2,
		"scenario": "numbers",
		"question_type": "filler",
		"ordering": 0,
		"predicted_ans": 0,
		"condition": "F5",
		"trial_type": "html-button-response",
		"trial_index": 36,
		"time_elapsed": 33783,
		"internal_node_id": "0.0-8.0-0.2",
		"indet": false
	},
	{
		"rt": 158,
		"stimulus": " \n    <p>   A player wins just in case their red number is higher than their opponentʼs red number and their blue number is higher than their opponentʼs blue number.  </p>           \n    <p>Otherwise the result is a draw.</p>                  \n    <img src='img/n_test_im.png' style='width:90%;max-width:600px;height:auto;margin-bottom:4%;'></img>\n    <p style='margin-bottom:4%;font-size:110%;'> <b> Alexʼs red number is higher than Kimʼs red number. </b></p>\n",
		"response": 2,
		"scenario": "numbers",
		"question_type": "filler",
		"ordering": 0,
		"predicted_ans": 2,
		"condition": "F6",
		"trial_type": "html-button-response",
		"trial_index": 37,
		"time_elapsed": 34351,
		"internal_node_id": "0.0-8.0-0.3",
		"indet": false
	},
	{
		"rt": 143,
		"stimulus": " \n    <p>   A player wins just in case their red number is higher than their opponentʼs red number and their blue number is higher than their opponentʼs blue number.  </p>           \n    <p>Otherwise the result is a draw.</p>                  \n    <img src='img/n_test_im.png' style='width:90%;max-width:600px;height:auto;margin-bottom:4%;'></img>\n    <p style='margin-bottom:4%;font-size:110%;'> <b> Alexʼs red number is even.  </b></p>\n",
		"response": 2,
		"scenario": "numbers",
		"question_type": "filler",
		"ordering": 0,
		"predicted_ans": 2,
		"condition": "F3",
		"trial_type": "html-button-response",
		"trial_index": 38,
		"time_elapsed": 34904,
		"internal_node_id": "0.0-8.0-0.4",
		"indet": false
	},
	{
		"rt": 89,
		"stimulus": " \n    <p>   A player wins just in case their red number is higher than their opponentʼs red number and their blue number is higher than their opponentʼs blue number.  </p>           \n    <p>Otherwise the result is a draw.</p>                  \n    <img src='img/n_test_im.png' style='width:90%;max-width:600px;height:auto;margin-bottom:4%;'></img>\n    <p style='margin-bottom:4%;font-size:110%;'> <b> If both of Kimʼs numbers were even, Kimʼs blue number would be even. </b></p>\n",
		"response": 2,
		"scenario": "numbers",
		"question_type": "test",
		"ordering": 0,
		"predicted_ans": 0,
		"condition": "T3",
		"trial_type": "html-button-response",
		"trial_index": 39,
		"time_elapsed": 35407,
		"internal_node_id": "0.0-8.0-0.5",
		"indet": false
	},
	{
		"rt": 482,
		"stimulus": " \n    <p>   A player wins just in case their red number is higher than their opponentʼs red number and their blue number is higher than their opponentʼs blue number.  </p>           \n    <p>Otherwise the result is a draw.</p>                  \n    <img src='img/n_test_im.png' style='width:90%;max-width:600px;height:auto;margin-bottom:4%;'></img>\n    <p style='margin-bottom:4%;font-size:110%;'> <b> If Kimʼs blue number was even, both of Kimʼs numbers would be even. </b></p>\n",
		"response": 2,
		"scenario": "numbers",
		"question_type": "test",
		"ordering": 0,
		"predicted_ans": 0,
		"condition": "T2",
		"trial_type": "html-button-response",
		"trial_index": 40,
		"time_elapsed": 36296,
		"internal_node_id": "0.0-8.0-0.6",
		"indet": false
	},
	{
		"rt": 183,
		"stimulus": " \n    <p>   A player wins just in case their red number is higher than their opponentʼs red number and their blue number is higher than their opponentʼs blue number.  </p>           \n    <p>Otherwise the result is a draw.</p>                  \n    <img src='img/n_test_im.png' style='width:90%;max-width:600px;height:auto;margin-bottom:4%;'></img>\n    <p style='margin-bottom:4%;font-size:110%;'> <b> If both of Kimʼs numbers were 2, Kim would have a winning hand.  </b></p>\n",
		"response": 2,
		"scenario": "numbers",
		"question_type": "test",
		"ordering": 0,
		"predicted_ans": 2,
		"condition": "False",
		"trial_type": "html-button-response",
		"trial_index": 41,
		"time_elapsed": 36889,
		"internal_node_id": "0.0-8.0-0.7",
		"indet": false
	},
	{
		"rt": 135,
		"stimulus": " \n     <p>   A player wins just in case their red number is higher than their opponentʼs red number and their blue number is higher than their opponentʼs blue number.  </p>           \n    <p>Otherwise the result is a draw.</p>                  \n    <img src='img/n_test_im.png' style='width:90%;max-width:600px;height:auto;margin-bottom:4%;'></img>\n    <p style='margin-bottom:4%;font-size:110%;'> <b> Alexʼs blue number is higher than Kimʼs blue number. </b></p>\n",
		"response": 2,
		"scenario": "numbers",
		"question_type": "filler",
		"ordering": 0,
		"predicted_ans": 2,
		"condition": "F4",
		"trial_type": "html-button-response",
		"trial_index": 42,
		"time_elapsed": 37433,
		"internal_node_id": "0.0-8.0-0.8",
		"indet": false
	},
	{
		"rt": 176,
		"stimulus": " \n    <p>   A player wins just in case their red number is higher than their opponentʼs red number and their blue number is higher than their opponentʼs blue number.  </p>           \n    <p>Otherwise the result is a draw.</p>                  \n    <img src='img/n_test_im.png' style='width:90%;max-width:600px;height:auto;margin-bottom:4%;'></img>\n    <p style='margin-bottom:4%;font-size:110%;'> <b> If Kimʼs blue number were even, Kim would have a winning hand. </b></p>\n",
		"response": 2,
		"scenario": "numbers",
		"question_type": "test",
		"ordering": 0,
		"predicted_ans": 0,
		"condition": "T1",
		"trial_type": "html-button-response",
		"trial_index": 43,
		"time_elapsed": 38025,
		"internal_node_id": "0.0-8.0-0.9",
		"indet": false
	},
	{
		"rt": 169,
		"stimulus": " \n    <p>   A player wins just in case their red number is higher than their opponentʼs red number and their blue number is higher than their opponentʼs blue number.  </p>           \n    <p>Otherwise the result is a draw.</p>                  \n    <img src='img/n_test_im.png' style='width:90%;max-width:600px;height:auto;margin-bottom:4%;'></img>\n    <p style='margin-bottom:4%;font-size:110%;'> <b> Alex currently has a winning hand. </b></p>\n",
		"response": 2,
		"scenario": "numbers",
		"question_type": "filler",
		"ordering": 0,
		"predicted_ans": 2,
		"condition": "F2",
		"trial_type": "html-button-response",
		"trial_index": 44,
		"time_elapsed": 38601,
		"internal_node_id": "0.0-8.0-0.10",
		"indet": false
	},
	{
		"rt": 219,
		"stimulus": " \n    <p>   A player wins just in case their red number is higher than their opponentʼs red number and their blue number is higher than their opponentʼs blue number.  </p>           \n    <p>Otherwise the result is a draw.</p>                  \n    <img src='img/n_test_im.png' style='width:90%;max-width:600px;height:auto;margin-bottom:4%;'></img>\n    <p style='margin-bottom:4%;font-size:110%;'> <b> If both of Kimʼs numbers were 4, Kim would have a winning hand.  </b></p>\n",
		"response": 2,
		"scenario": "numbers",
		"question_type": "test",
		"ordering": 0,
		"predicted_ans": 0,
		"condition": "True",
		"trial_type": "html-button-response",
		"trial_index": 45,
		"time_elapsed": 39226,
		"internal_node_id": "0.0-8.0-0.11",
		"indet": false
	},
	{
		"rt": null,
		"stimulus": " <p style='font-size:110%;'> Thank you for taking part in the experiment! </p>  <p style='font-size:110%;'>You will be redirected to prolific to confirm your participation and completion.</p>",
		"response": null,
		"trial_type": "html-keyboard-response",
		"trial_index": 46,
		"time_elapsed": 41646,
		"internal_node_id": "0.0-9.0"
	}
]]